{
  "resourceType": "MeasureReport",
  "id": "nN7N4170",
  "meta": {
    "versionId": "7",
    "lastUpdated": "2022-01-25T21:32:43.412+00:00",
    "source": "#7dKCjqdmI0f8gp1I"
  },
  "contained": [
    {
      "resourceType": "List",
      "id": "initial-population-subject-list",
      "status": "current",
      "mode": "snapshot",
      "entry": [
        {
          "item": {
            "reference": "MeasureReport/nN7N4170-128172033"
          }
        },
        {
          "item": {
            "reference": "MeasureReport/nN7N4170--499073169"
          }
        },
        {
          "item": {
            "reference": "MeasureReport/nN7N4170--831745084"
          }
        },
        {
          "item": {
            "reference": "MeasureReport/nN7N4170-1626629723"
          }
        },
        {
          "item": {
            "reference": "MeasureReport/nN7N4170--5826530"
          }
        }
      ]
    },
    {
      "resourceType": "List",
      "id": "numerator-subject-list",
      "status": "current",
      "mode": "snapshot",
      "entry": [
        {
          "item": {
            "reference": "MeasureReport/nN7N4170-128172033"
          }
        },
        {
          "item": {
            "reference": "MeasureReport/nN7N4170--499073169"
          }
        },
        {
          "item": {
            "reference": "MeasureReport/nN7N4170--831745084"
          }
        },
        {
          "item": {
            "reference": "MeasureReport/nN7N4170-1626629723"
          }
        },
        {
          "item": {
            "reference": "MeasureReport/nN7N4170--5826530"
          }
        }
      ]
    },
    {
      "resourceType": "List",
      "id": "denominator-subject-list",
      "status": "current",
      "mode": "snapshot",
      "entry": [
        {
          "item": {
            "reference": "MeasureReport/nN7N4170-128172033"
          }
        },
        {
          "item": {
            "reference": "MeasureReport/nN7N4170--499073169"
          }
        },
        {
          "item": {
            "reference": "MeasureReport/nN7N4170--831745084"
          }
        },
        {
          "item": {
            "reference": "MeasureReport/nN7N4170-1626629723"
          }
        },
        {
          "item": {
            "reference": "MeasureReport/nN7N4170--5826530"
          }
        }
      ]
    }
  ],
  "status": "complete",
  "type": "subject-list",
  "measure": "Measure/COVIDMin",
  "period": {
    "start": "2021-01-03T00:00:00+00:00",
    "end": "2021-01-03T23:59:59+00:00"
  },
  "group": [
    {
      "population": [
        {
          "code": {
            "coding": [
              {
                "system": "http://terminology.hl7.org/CodeSystem/measure-population",
                "code": "initial-population",
                "display": "Initial Population"
              }
            ]
          },
          "count": 5,
          "subjectResults": {
            "reference": "#initial-population-subject-list"
          }
        },
        {
          "code": {
            "coding": [
              {
                "system": "http://terminology.hl7.org/CodeSystem/measure-population",
                "code": "numerator",
                "display": "Numerator"
              }
            ]
          },
          "count": 5,
          "subjectResults": {
            "reference": "#numerator-subject-list"
          }
        },
        {
          "code": {
            "coding": [
              {
                "system": "http://terminology.hl7.org/CodeSystem/measure-population",
                "code": "denominator",
                "display": "Denominator"
              }
            ]
          },
          "count": 5,
          "subjectResults": {
            "reference": "#denominator-subject-list"
          }
        }
      ]
    }
  ]
}
